# SFF main_header 6
# beamline_name = "APS 10ID";
# %date = "Mon Jun 03 2013 19:44:32";
# edge_energy = 30491;
# sff_header1 = " ";
# sff_header2 = " ";
# %devices = smy smx Io It corr_roi1_0 corr_roi2_0 corr_roi3_0 corr_roi4_0;
 93000      16000          197182     197240 363.37827  453.15065  637.16053  572.83599 
 93000      16600          197182     197240 1110.0178  1182.8275  1520.4009  1338.7524 
 93000      17200          197182     115610 1178.3884  1373.8204  1664.2217  1407.3472 
 93000      17800          197182      88745 1138.7817  1393.7146  1601.0686  1454.387  
 93000      18400          197182     153412 1074.6971  1120.1964  1275.7628  1251.806  
 93000      19000          197182      46990 1566.7893  1380.8608  1836.904   1731.6843 
 93000      19600          197182      27241 1653.763   1357.0373  2042.5847  1849.4115 
 93000      20200          197182      17827 1777.5025  1700.8648  2043.3531  2274.7246 
 93000      20800          197181      12156 6515.1119  2668.3896  3947.3559  5238.1712 
 93000      21400          197182      18333 27413.872  6223.6896  12697.155  20346.807 
 93000      22000          197182      27115 23771.942  6496.5141  11816.908  17409.076 
 93000      22600          197182      32108 20081.761  6425.6827  11291.259  15419.39  
 93000      23200          197182      37799 22595.351  7942.4257  14327.644  18074.939 
 93000      23800          197182      37362 20821.359  8836.2353  14404.161  18121.145 
 93000      24400          197182      38007 14342.995  8597.3646  12736.192  13979.519 
 93000      25000          197182      37295 15057.821  11194.201  15589.602  15505.217 
 93000      25600          197182      41315 9495.1104  7647.8531  9284.0807  9769.3409 
 93000      26200          197182      32899 12422.126  11835.753  14385.717  13352.236 
 93000      26800          197182      15212 26034.131  24642.291  28790.255  28123.772 
 93000      27400          197182      27823 33039.311  29709.476  35608.198  35078.389 
 93000      28000          197182       9699 44598.014  40090.714  50076.56   46087.138 
 93000      28600          197181       8512 58200.822  52545.291  62946.946  59275.677 
 93000      29200          197182       7485 75549.106  61106.605  77632.813  76653.668 
 93000      29800          197182       1107 86043.416  78051.941  88817.568  87212.151 
 93000      30400          197182        796 89763.86   81513.519  95263.352  89485.641 
 93000      31000          197181        208 88202.549  78775.407  94531.01   90429.338 
 93000      31600          197182      12191 8415.0953  8560.9071  10081.094  9052.8347 
 93000      32200          197182      16648 6542.5676  7038.6153  8063.7895  7894.0685 
 93000      32800          197182      23797 6483.8853  7258.7673  7137.7582  6715.1596 
 93000      33400          197182      37463 6209.607   6735.1794  6962.5263  6310.4813 
 93000      34000          197182      74867 4721.4066  5774.7885  5899.4827  5735.7831 
 93000      34600          197182     134552 4546.1904  5383.7302  5989.2675  5417.4056 
 93000      35200          197182     197241 2487.7517  2921.0313  3238.48    3035.3366 
 93000      35800          197182     197240 426.84547  546.13996  664.94829  530.84175 