# SFF main_header 6
# beamline_name = "APS 10ID";
# %date = "Mon Jun 03 2013 19:44:32";
# edge_energy = 30491;
# sff_header1 = " ";
# sff_header2 = " ";
# %devices = smy smx Io It corr_roi1_0 corr_roi2_0 corr_roi3_0 corr_roi4_0;
 90000      16000          197182     197240 458.87824  535.25629  660.60987  520.43318
 90000      16600          197182     197240 1261.9166  1456.1721  1629.3899  1457.4652
 90000      17200          197182     111918 1596.4822  1543.0608  1960.8895  1865.4282
 90000      17800          197182      93299 1091.2618  1350.1578  1555.7889  1423.8283
 90000      18400          197182     130704 1170.1196  1430.5864  1646.246   1575.6062
 90000      19000          197182      42025 1861.05    1996.3428  2367.6878  2104.6298
 90000      19600          197182      24246 1886.3415  2247.0479  2475.0876  2450.3888
 90000      20200          197182      16383 2189.8425  2748.7298  3034.9487  2734.9156
 90000      20800          197182      13661 16710.425  14999.271  17449.964  16848.959
 90000      21400          197182      32921 13620.282  12153.959  15182.484  14296.821
 90000      22000          197181      45616 10567.835  8754.4341  11079.091  10780.208
 90000      22600          197182      46507 19669.579  17596.011  20128.267  20762.543
 90000      23200          197181      60131 6819.4386  6211.7578  7312.4687  6603.929
 90000      23800          197182      60726 10788.829  9638.6656  11694.06   11442.608
 90000      24400          197182      68759 7950.3905  7350.5305  8987.6138  8024.9045
 90000      25000          197181      72033 6344.5598  5827.9166  7408.3995  6702.0565
 90000      25600          197182      57525 11865.576  10426.489  12872.465  12401.208
 90000      26200          197181      70319 6013.9736  6222.6102  7383.2734  7247.5711
 90000      26800          197181      68404 9607.1393  8530.3113  10234.352  9741.236
 90000      27400          197182      65991 10081.512  9280.2331  11423.303  11237.404
 90000      28000          197182      63173 12040.436  11301.754  13347.301  12663.851
 90000      28600          197182      59890 12499.528  11562.351  14338.927  13292.182
 90000      29200          197182      51862 14230.429  13514.402  15729.476  15837.193
 90000      29800          197182      44623 17738.859  17176.603  19687.651  18688.345
 90000      30400          197182      33472 22584.244  20403.813  24558.746  22700.592
 90000      31000          197182      19620 32359.588  28735.737  33939.543  32582.339
 90000      31600          197182      12233 6294.0641  6846.3579  7584.2284  6970.9828
 90000      32200          197181      17055 6137.4843  6533.5521  7706.5519  6352.9701
 90000      32800          197182      24514 5980.7602  6396.6323  7334.1347  6320.7088
 90000      33400          197182      40633 5461.1116  6381.9269  7125.5781  6324.4422
 90000      34000          197182      80505 4752.7642  5566.2687  6002.81    5576.2094
 90000      34600          197182     132858 4544.6457  4983.2991  5713.199   5192.9017
 90000      35200          197181     197241 2124.1708  2562.1885  2557.4593  2425.2969
 90000      35800          197181     197240 485.75911  545.54927  708.36652  631.75182