# SFF main_header 6
# beamline_name = "APS 10ID";
# %date = "Mon Jun 03 2013 19:44:32";
# edge_energy = 30491;
# sff_header1 = " ";
# sff_header2 = " ";
# %devices = smy smx Io It corr_roi1_0 corr_roi2_0 corr_roi3_0 corr_roi4_0;
 91000      16000          197182     197240 418.70132  598.18591  717.90832  507.47222
 91000      16600          197182     197241 1263.2118  1355.9644  1584.348   1518.1231
 91000      17200          197182     113078 1484.7793  1623.1892  1905.3443  1695.4613
 91000      17800          197182      90777 1287.8374  1514.6107  1718.7014  1488.3981
 91000      18400          197181     135354 1225.3745  1196.3656  1574.7359  1557.7024
 91000      19000          197182      42568 1773.7521  1858.6099  2065.7499  1932.4666
 91000      19600          197182      25410 1981.8412  2006.7352  2585.86    2529.696
 91000      20200          197182      16874 2214.0333  2654.437   2780.5328  2628.3009
 91000      20800          197181      11637 20402.446  18095.203  20598.702  21896.863
 91000      21400          197182      25580 26768.933  23530.651  29362.654  28419.384
 91000      22000          197182      36958 24171.49   20408.534  25417.608  25490.093
 91000      22600          197181      50079 11494.678  10867.115  13065.938  13679.776
 91000      23200          197182      55113 11751.847  10332.891  12474.044  12018.609
 91000      23800          197182      61441 8334.4118  7700.6115  9232.1748  8895.0086
 91000      24400          197182      59987 14470.99   12892.673  16264.038  15279.248
 91000      25000          197182      64836 10630.6    9123.3386  11387.076  10992.394
 91000      25600          197182      56816 13232.108  11831.496  14690.646  13767.655
 91000      26200          197182      66713 6669.5812  6172.977   7524.5496  7147.6972
 91000      26800          197182      68081 7620.4452  7544.8921  9356.5257  8784.1519
 91000      27400          197182      62610 14490.407  13476.461  16264.346  15768.354
 91000      28000          197181      60806 12036.438  11417.052  13133.737  12873.291
 91000      28600          197182      50024 23869.824  20531.087  24619.767  23780.863
 91000      29200          197182      33064 46594.736  40596.817  48539.667  47289.057
 91000      29800          197182      43533 20002.617  19691.389  22594.342  21949.548
 91000      30400          197181      33371 26014.506  22898.248  27320.221  26976.331
 91000      31000          197181      15194 44996.907  39760.02   47457.658  44886.384
 91000      31600          197182      12173 6387.3337  6938.5827  7788.7423  7395.2691
 91000      32200          197182      16726 6104.7239  6975.6141  7211.3616  6799.7405
 91000      32800          197182      24256 6075.8972  6504.2053  7484.2016  6539.3595
 91000      33400          197182      39045 5693.1555  6397.727   7018.8568  6643.0436
 91000      34000          197182      76567 4890.8821  5340.9457  5967.6223  5167.4355
 91000      34600          197182     136365 4547.1809  5346.6275  6171.212   5203.226
 91000      35200          197182     197241 2453.2096  2840.6055  2976.7176  2638.9591
 91000      35800          197182     197241 380.00037  629.23401  708.01636  562.48533